staircase.thisTrialN,staircase.stepSize,staircase.intensity,thisRow.t,notes,trial.started,fixation.started,grating.started,key_resp.started,fixation.stopped,grating.stopped,trial.stopped,corrAns,tilt,,key_resp.corr,staircase.response,key_resp.rt,participant,session,date,expName,psychopyVersion,frameRate,expStart
0,2,10,0.010395125,,0.005167333,0.010395125,0.566218083,0.566218083,0.570711958,0.854375083,28.51617058,left,-10,,0,0,27.90681321,403058,1,2024-09-12_14h43.08.824,SESSION 3 ADAPTIVE STAIRCASE,2024.1.5,None,2024-09-12 14h43.12.031821 +0530
1,1,12,28.54083937,,28.51633829,28.54083937,29.00765504,29.00765504,29.03492904,,29.20730275,right,12,,1,1,0.196390625,403058,1,2024-09-12_14h43.08.824,SESSION 3 ADAPTIVE STAIRCASE,2024.1.5,None,2024-09-12 14h43.12.031821 +0530
2,1,11,29.21854938,,29.20742896,29.21854938,29.701883,29.701883,29.70664983,29.98957983,30.25768638,right,11,,1,1,0.552766125,403058,1,2024-09-12_14h43.08.824,SESSION 3 ADAPTIVE STAIRCASE,2024.1.5,None,2024-09-12 14h43.12.031821 +0530
3,1,11,30.26818358,,30.25781,30.26818358,30.75646321,30.75646321,30.75646321,31.05192517,31.2867425,left,-11,,1,1,0.519461833,403058,1,2024-09-12_14h43.08.824,SESSION 3 ADAPTIVE STAIRCASE,2024.1.5,None,2024-09-12 14h43.12.031821 +0530
4,1,11,31.29515671,,31.28686367,31.29515671,31.78516887,31.78516887,31.78974221,32.07309271,32.35389496,left,-11,,0,0,0.563354666,403058,1,2024-09-12_14h43.08.824,SESSION 3 ADAPTIVE STAIRCASE,2024.1.5,None,2024-09-12 14h43.12.031821 +0530
5,1,12,32.362761,,32.35407796,32.362761,32.85183971,32.85183971,32.85650867,33.13984875,33.30737433,right,12,,1,1,0.452944042,403058,1,2024-09-12_14h43.08.824,SESSION 3 ADAPTIVE STAIRCASE,2024.1.5,None,2024-09-12 14h43.12.031821 +0530
6,1,12,33.31834208,,33.30749304,33.31834208,33.80638704,33.80638704,33.80638704,34.10202792,34.29065258,right,12,,1,1,0.481545792,403058,1,2024-09-12_14h43.08.824,SESSION 3 ADAPTIVE STAIRCASE,2024.1.5,None,2024-09-12 14h43.12.031821 +0530
7,0.5,12,34.30189471,,34.29077037,34.30189471,34.78978987,34.78978987,34.78978987,35.08526162,35.18738958,left,-12,,1,1,0.385595208,403058,1,2024-09-12_14h43.08.824,SESSION 3 ADAPTIVE STAIRCASE,2024.1.5,None,2024-09-12 14h43.12.031821 +0530
8,0.5,11.5,35.19594621,,35.18755521,35.19594621,35.68532567,35.68532567,35.68995783,35.97308608,36.10349304,left,-11.5,,0,0,0.413418291,403058,1,2024-09-12_14h43.08.824,SESSION 3 ADAPTIVE STAIRCASE,2024.1.5,None,2024-09-12 14h43.12.031821 +0530
9,0.5,12,36.11212792,,36.10363308,36.11212792,36.60206637,36.60206637,36.60683196,36.88931858,37.05383308,left,-12,,0,0,0.44816925,403058,1,2024-09-12_14h43.08.824,SESSION 3 ADAPTIVE STAIRCASE,2024.1.5,None,2024-09-12 14h43.12.031821 +0530
10,0.5,12.5,37.06240954,,37.054001,37.06240954,37.55194946,37.55194946,37.55663338,37.83980563,38.07058692,right,12.5,,1,1,0.51561275,403058,1,2024-09-12_14h43.08.824,SESSION 3 ADAPTIVE STAIRCASE,2024.1.5,None,2024-09-12 14h43.12.031821 +0530
11,0.5,12.5,38.07900804,,38.07070921,38.07900804,38.56872604,38.56872604,38.57346392,38.85584996,39.03772396,right,12.5,,1,1,0.465563375,403058,1,2024-09-12_14h43.08.824,SESSION 3 ADAPTIVE STAIRCASE,2024.1.5,None,2024-09-12 14h43.12.031821 +0530
12,0.5,12.5,39.04655371,,39.03787896,39.04655371,39.53545358,39.53545358,39.5402265,39.82216037,39.97084108,right,12.5,,1,1,0.424591834,403058,1,2024-09-12_14h43.08.824,SESSION 3 ADAPTIVE STAIRCASE,2024.1.5,None,2024-09-12 14h43.12.031821 +0530
13,0.5,12,39.97962075,,39.97099975,39.97962075,40.46872479,40.46872479,40.47333583,40.76231621,40.75384817,left,-12,,1,1,0.282026834,403058,1,2024-09-12_14h43.08.824,SESSION 3 ADAPTIVE STAIRCASE,2024.1.5,None,2024-09-12 14h43.12.031821 +0530
14,0.5,12,40.76231621,,40.75396292,40.76231621,41.25214621,41.25214621,41.25683867,41.53934358,41.73764683,left,-12,,1,1,0.481888709,403058,1,2024-09-12_14h43.08.824,SESSION 3 ADAPTIVE STAIRCASE,2024.1.5,None,2024-09-12 14h43.12.031821 +0530
15,0.5,12,41.74617129,,41.73780929,41.74617129,42.23540196,42.23540196,42.24012858,42.52314654,42.52487688,left,-12,,1,1,0.286296917,403058,1,2024-09-12_14h43.08.824,SESSION 3 ADAPTIVE STAIRCASE,2024.1.5,None,2024-09-12 14h43.12.031821 +0530
16,0.5,11.5,42.53496517,,42.525,42.53496517,43.02326383,43.02326383,43.02326383,43.31898187,43.37491642,left,-11.5,,0,0,0.348341375,403058,1,2024-09-12_14h43.08.824,SESSION 3 ADAPTIVE STAIRCASE,2024.1.5,None,2024-09-12 14h43.12.031821 +0530
17,0.5,12,43.38505425,,43.37508304,43.38505425,43.87316933,43.87316933,43.87316933,44.16894958,44.34156929,right,12,,1,1,0.455992167,403058,1,2024-09-12_14h43.08.824,SESSION 3 ADAPTIVE STAIRCASE,2024.1.5,None,2024-09-12 14h43.12.031821 +0530
18,0.5,12,44.34986204,,44.34169508,44.34986204,44.83557362,44.83557362,44.84024587,45.12323183,45.23720233,right,12,,1,1,0.387800833,403058,1,2024-09-12_14h43.08.824,SESSION 3 ADAPTIVE STAIRCASE,2024.1.5,None,2024-09-12 14h43.12.031821 +0530
19,0.5,12,45.24516817,,45.23732846,45.24516817,45.73557367,45.73557367,45.74064725,46.02282837,46.03815725,left,-12,,0,0,0.289997666,403058,1,2024-09-12_14h43.08.824,SESSION 3 ADAPTIVE STAIRCASE,2024.1.5,None,2024-09-12 14h43.12.031821 +0530
20,0.5,12.5,46.04694225,,46.03832325,46.04694225,46.53549183,46.53549183,46.54021113,46.82228221,47.29216979,right,12.5,,1,1,0.752809791,403058,1,2024-09-12_14h43.08.824,SESSION 3 ADAPTIVE STAIRCASE,2024.1.5,None,2024-09-12 14h43.12.031821 +0530
21,0.5,12.5,47.30176404,,47.29229692,47.30176404,47.78994583,47.78994583,47.78994583,48.08574792,48.19085929,left,-12.5,,1,1,0.397987334,403058,1,2024-09-12_14h43.08.824,SESSION 3 ADAPTIVE STAIRCASE,2024.1.5,None,2024-09-12 14h43.12.031821 +0530
22,0.5,12.5,48.20225192,,48.19097746,48.20225192,48.68569021,48.68569021,48.69042517,48.97303558,49.00387146,right,12.5,,0,0,0.31569875,403058,1,2024-09-12_14h43.08.824,SESSION 3 ADAPTIVE STAIRCASE,2024.1.5,None,2024-09-12 14h43.12.031821 +0530
23,0.5,13,49.01233712,,49.00400158,49.01233712,49.50235592,49.50235592,49.50728742,49.78929862,50.04268471,right,13,,0,0,0.53678225,403058,1,2024-09-12_14h43.08.824,SESSION 3 ADAPTIVE STAIRCASE,2024.1.5,None,2024-09-12 14h43.12.031821 +0530
24,0.5,13.5,50.05188058,,50.04283913,50.05188058,50.54003637,50.54003637,50.54003637,50.8358825,51.14130375,right,13.5,,1,1,0.599181375,403058,1,2024-09-12_14h43.08.824,SESSION 3 ADAPTIVE STAIRCASE,2024.1.5,None,2024-09-12 14h43.12.031821 +0530
25,0.5,13.5,51.15215258,,51.14142613,51.15215258,51.64014104,51.64014104,51.64014104,51.93588962,52.17511675,left,-13.5,,1,1,0.533051083,403058,1,2024-09-12_14h43.08.824,SESSION 3 ADAPTIVE STAIRCASE,2024.1.5,None,2024-09-12 14h43.12.031821 +0530
26,0.5,13.5,52.18535325,,52.17523525,52.18535325,52.67363821,52.67363821,52.67363821,52.9691635,53.07107675,left,-13.5,,1,1,0.393663084,403058,1,2024-09-12_14h43.08.824,SESSION 3 ADAPTIVE STAIRCASE,2024.1.5,None,2024-09-12 14h43.12.031821 +0530
27,0.5,13,53.07970575,,53.07123033,53.07970575,53.56902512,53.56902512,53.57368925,53.85600312,53.97127517,left,-13,,1,1,0.39615125,403058,1,2024-09-12_14h43.08.824,SESSION 3 ADAPTIVE STAIRCASE,2024.1.5,None,2024-09-12 14h43.12.031821 +0530
28,0.5,13,53.98012925,,53.97143458,53.98012925,54.46904667,54.46904667,54.47367392,54.75584337,54.85800129,left,-13,,1,1,0.3861135,403058,1,2024-09-12_14h43.08.824,SESSION 3 ADAPTIVE STAIRCASE,2024.1.5,None,2024-09-12 14h43.12.031821 +0530
29,0.5,13,54.86896183,,54.85811833,54.86896183,55.35252783,55.35252783,55.3573605,55.64050275,56.65783967,left,-13,,1,1,1.302649917,403058,1,2024-09-12_14h43.08.824,SESSION 3 ADAPTIVE STAIRCASE,2024.1.5,None,2024-09-12 14h43.12.031821 +0530
30,0.5,12.5,56.66927613,,56.657967,56.66927613,57.15244733,57.15244733,57.15717875,57.43976471,57.72122729,right,12.5,,1,1,0.56430975,403058,1,2024-09-12_14h43.08.824,SESSION 3 ADAPTIVE STAIRCASE,2024.1.5,None,2024-09-12 14h43.12.031821 +0530
31,0.5,12.5,57.7299685,,57.721374,57.7299685,58.21929737,58.21929737,58.22401825,58.50602188,58.5545825,left,-12.5,,1,1,0.320953375,403058,1,2024-09-12_14h43.08.824,SESSION 3 ADAPTIVE STAIRCASE,2024.1.5,None,2024-09-12 14h43.12.031821 +0530
32,0.5,12.5,58.56297446,,58.55474571,58.56297446,59.05258558,59.05258558,59.05729492,59.339318,59.37135029,left,-12.5,,0,0,0.313815416,403058,1,2024-09-12_14h43.08.824,SESSION 3 ADAPTIVE STAIRCASE,2024.1.5,None,2024-09-12 14h43.12.031821 +0530
33,0.5,13,59.38012112,,59.37151987,59.38012112,59.86930071,59.86930071,59.8740485,60.15700392,60.54238208,right,13,,1,1,0.669512041,403058,1,2024-09-12_14h43.08.824,SESSION 3 ADAPTIVE STAIRCASE,2024.1.5,None,2024-09-12 14h43.12.031821 +0530
34,0.5,13,60.552122,,60.54251158,60.552122,61.04018967,61.04018967,61.04018967,61.33605038,61.5213205,left,-13,,1,1,0.472323792,403058,1,2024-09-12_14h43.08.824,SESSION 3 ADAPTIVE STAIRCASE,2024.1.5,None,2024-09-12 14h43.12.031821 +0530
35,0.5,13,61.53001604,,61.52148387,61.53001604,62.01922904,62.01922904,62.02398808,62.30613454,62.57133342,right,13,,1,1,0.539937708,403058,1,2024-09-12_14h43.08.824,SESSION 3 ADAPTIVE STAIRCASE,2024.1.5,None,2024-09-12 14h43.12.031821 +0530
36,0.5,12.5,62.58006313,,62.57148192,62.58006313,63.06924454,63.06924454,63.07380171,63.35708533,63.59121483,right,12.5,,1,1,0.519145792,403058,1,2024-09-12_14h43.08.824,SESSION 3 ADAPTIVE STAIRCASE,2024.1.5,None,2024-09-12 14h43.12.031821 +0530
37,0.5,12.5,63.60263562,,63.59133392,63.60263562,64.08597137,64.08597137,64.09081242,64.37333171,64.92144683,right,12.5,,1,1,0.823677417,403058,1,2024-09-12_14h43.08.824,SESSION 3 ADAPTIVE STAIRCASE,2024.1.5,None,2024-09-12 14h43.12.031821 +0530
38,0.5,12.5,64.93005171,,64.92159229,64.93005171,65.41928162,65.41928162,65.42396337,65.70710104,65.83824754,right,12.5,,0,0,0.4134665,403058,1,2024-09-12_14h43.08.824,SESSION 3 ADAPTIVE STAIRCASE,2024.1.5,None,2024-09-12 14h43.12.031821 +0530
39,0.5,13,65.84694158,,65.83842483,65.84694158,66.33603525,66.33603525,66.34072179,66.62324475,66.85477979,right,13,,1,1,0.510365375,403058,1,2024-09-12_14h43.08.824,SESSION 3 ADAPTIVE STAIRCASE,2024.1.5,None,2024-09-12 14h43.12.031821 +0530
40,0.5,13,66.86339575,,66.85493412,66.86339575,67.35285483,67.35285483,67.35746025,67.64021354,67.77158912,right,13,,1,1,0.4080305,403058,1,2024-09-12_14h43.08.824,SESSION 3 ADAPTIVE STAIRCASE,2024.1.5,None,2024-09-12 14h43.12.031821 +0530
41,0.5,13,67.78019721,,67.77173192,67.78019721,68.2695755,68.2695755,68.27420067,68.55669704,68.75471733,left,-13,,0,0,0.473519458,403058,1,2024-09-12_14h43.08.824,SESSION 3 ADAPTIVE STAIRCASE,2024.1.5,None,2024-09-12 14h43.12.031821 +0530
42,0.5,13.5,68.76329183,,68.75490729,68.76329183,69.25273629,69.25273629,69.25750617,69.53998692,69.75875804,right,13.5,,1,1,0.50327375,403058,1,2024-09-12_14h43.08.824,SESSION 3 ADAPTIVE STAIRCASE,2024.1.5,None,2024-09-12 14h43.12.031821 +0530
43,0.5,13.5,69.76925462,,69.75888504,69.76925462,70.25733721,70.25733721,70.25733721,70.5529695,70.72140529,left,-13.5,,1,1,0.453358375,403058,1,2024-09-12_14h43.08.824,SESSION 3 ADAPTIVE STAIRCASE,2024.1.5,None,2024-09-12 14h43.12.031821 +0530
44,0.5,13.5,70.72984921,,70.72155471,70.72984921,71.21942721,71.21942721,71.22404633,71.50679771,72.02580825,left,-13.5,,0,0,0.804156791,403058,1,2024-09-12_14h43.08.824,SESSION 3 ADAPTIVE STAIRCASE,2024.1.5,None,2024-09-12 14h43.12.031821 +0530
45,0.5,14,72.03571287,,72.02594642,72.03571287,72.52401529,72.52401529,72.52401529,72.81970754,73.17163779,right,14,,1,1,0.634598125,403058,1,2024-09-12_14h43.08.824,SESSION 3 ADAPTIVE STAIRCASE,2024.1.5,None,2024-09-12 14h43.12.031821 +0530
46,0.5,14,73.18012954,,73.17178612,73.18012954,73.66962742,73.66962742,73.67420571,73.95687804,74.83821087,right,14,,1,1,1.1618945,403058,1,2024-09-12_14h43.08.824,SESSION 3 ADAPTIVE STAIRCASE,2024.1.5,None,2024-09-12 14h43.12.031821 +0530
47,0.5,14,74.84721108,,74.83836779,74.84721108,75.33638146,75.33638146,75.34117629,75.62339825,76.19192471,left,-14,,1,1,0.853135459,403058,1,2024-09-12_14h43.08.824,SESSION 3 ADAPTIVE STAIRCASE,2024.1.5,None,2024-09-12 14h43.12.031821 +0530
48,0.5,13.5,76.202708,,76.19205012,76.202708,76.69075921,76.69075921,76.69075921,76.98638775,77.30826733,right,13.5,,1,1,0.61545225,403058,1,2024-09-12_14h43.08.824,SESSION 3 ADAPTIVE STAIRCASE,2024.1.5,None,2024-09-12 14h43.12.031821 +0530
49,0.5,13.5,77.31968717,,77.30838979,77.31968717,77.80308667,77.80308667,77.80788896,78.09019958,78.671797,left,-13.5,,1,1,0.855580459,403058,1,2024-09-12_14h43.08.824,SESSION 3 ADAPTIVE STAIRCASE,2024.1.5,None,2024-09-12 14h43.12.031821 +0530
50,0.5,13.5,78.68036358,,78.67195338,78.68036358,79.16967054,79.16967054,79.17443762,79.45687425,83.97533804,left,-13.5,,0,0,4.803549917,403058,1,2024-09-12_14h43.08.824,SESSION 3 ADAPTIVE STAIRCASE,2024.1.5,None,2024-09-12 14h43.12.031821 +0530
51,0.5,14,83.98657279,,83.97546746,83.98657279,84.46989946,84.46989946,84.47465346,84.75714517,85.00511417,right,14,14,1,1,0.521891,403058,1,2024-09-12_14h43.08.824,SESSION 3 ADAPTIVE STAIRCASE,2024.1.5,None,2024-09-12 14h43.12.031821 +0530
52,0.5,14,85.01325083,,85.00525608,85.01325083,85.50323117,85.50323117,85.50775121,85.79023717,86.08851342,left,-14,,0,0,0.5757405,403058,1,2024-09-12_14h43.08.824,SESSION 3 ADAPTIVE STAIRCASE,2024.1.5,None,2024-09-12 14h43.12.031821 +0530
53,0.5,14.5,86.09713004,,86.08865967,86.09713004,86.58663437,86.58663437,86.59126754,86.87393013,87.05510712,right,14.5,14.5,1,1,0.458467458,403058,1,2024-09-12_14h43.08.824,SESSION 3 ADAPTIVE STAIRCASE,2024.1.5,None,2024-09-12 14h43.12.031821 +0530
54,0.5,14.5,87.06331517,,87.055254,87.06331517,87.55330067,87.55330067,87.55796617,87.84149733,88.38869504,left,-14.5,,1,1,0.828513542,403058,1,2024-09-12_14h43.08.824,SESSION 3 ADAPTIVE STAIRCASE,2024.1.5,None,2024-09-12 14h43.12.031821 +0530
55,0.5,14.5,88.39739233,,88.38885642,88.39739233,88.886559,88.886559,88.89131458,89.17348642,89.64232429,right,14.5,,1,1,0.753670458,403058,1,2024-09-12_14h43.08.824,SESSION 3 ADAPTIVE STAIRCASE,2024.1.5,None,2024-09-12 14h43.12.031821 +0530
56,0.5,14,89.65309625,,89.64244817,89.65309625,90.14113208,90.14113208,90.14113208,90.43677017,90.79331121,right,14,,1,1,0.648180583,403058,1,2024-09-12_14h43.08.824,SESSION 3 ADAPTIVE STAIRCASE,2024.1.5,None,2024-09-12 14h43.12.031821 +0530
57,0.5,14,90.80288087,,90.79346512,90.80288087,91.29124058,91.29124058,91.29124058,91.58678083,92.17174108,left,-14,,0,0,0.869556083,403058,1,2024-09-12_14h43.08.824,SESSION 3 ADAPTIVE STAIRCASE,2024.1.5,None,2024-09-12 14h43.12.031821 +0530
58,0.5,14.5,92.18042713,,92.1719045,92.18042713,92.67008275,92.67008275,92.67472933,92.95684975,94.10533058,right,14.5,14.5,1,1,1.425102917,403058,1,2024-09-12_14h43.08.824,SESSION 3 ADAPTIVE STAIRCASE,2024.1.5,None,2024-09-12 14h43.12.031821 +0530
59,0.5,14.5,94.11421704,,94.10551737,94.11421704,94.60349775,94.60349775,94.60830879,94.89075746,95.37215958,left,-14.5,,1,1,0.758484375,403058,1,2024-09-12_14h43.08.824,SESSION 3 ADAPTIVE STAIRCASE,2024.1.5,None,2024-09-12 14h43.12.031821 +0530
60,0.5,14.5,95.38049762,,95.37230946,95.38049762,95.87013196,95.87013196,95.87478662,96.15761992,96.56016329,right,14.5,,1,1,0.68692625,403058,1,2024-09-12_14h43.08.824,SESSION 3 ADAPTIVE STAIRCASE,2024.1.5,None,2024-09-12 14h43.12.031821 +0530
61,0.5,14,96.56964208,,96.56029525,96.56964208,97.05778712,97.05778712,97.05778712,97.35355742,97.87552333,left,-14,,1,1,0.814509417,403058,1,2024-09-12_14h43.08.824,SESSION 3 ADAPTIVE STAIRCASE,2024.1.5,None,2024-09-12 14h43.12.031821 +0530
62,0.5,14,97.88691542,,97.87564067,97.88691542,98.37014129,98.37014129,98.37494592,98.65745867,99.04344075,right,14,,1,1,0.669544042,403058,1,2024-09-12_14h43.08.824,SESSION 3 ADAPTIVE STAIRCASE,2024.1.5,None,2024-09-12 14h43.12.031821 +0530
63,0.5,14,99.05303879,,99.04359167,99.05303879,99.54150708,99.54150708,99.54150708,99.8369685,100.0388052,right,14,,1,1,0.484506458,403058,1,2024-09-12_14h43.08.824,SESSION 3 ADAPTIVE STAIRCASE,2024.1.5,None,2024-09-12 14h43.12.031821 +0530
64,0.5,13.5,100.047758,,100.0389538,100.047758,100.5369921,100.5369921,100.5415281,100.8247739,101.1723482,left,-13.5,,1,1,0.626027667,403058,1,2024-09-12_14h43.08.824,SESSION 3 ADAPTIVE STAIRCASE,2024.1.5,None,2024-09-12 14h43.12.031821 +0530
65,0.5,13.5,101.1807547,,101.1724805,101.1807547,101.6703106,101.6703106,101.6748446,101.9579223,102.289115,left,-13.5,,1,1,0.608005292,403058,1,2024-09-12_14h43.08.824,SESSION 3 ADAPTIVE STAIRCASE,2024.1.5,None,2024-09-12 14h43.12.031821 +0530
66,0.5,13.5,102.2977444,,102.2892558,102.2977444,102.7870685,102.7870685,102.79171,103.0748156,103.62614,right,13.5,,1,1,0.836385208,403058,1,2024-09-12_14h43.08.824,SESSION 3 ADAPTIVE STAIRCASE,2024.1.5,None,2024-09-12 14h43.12.031821 +0530
67,0.5,13,103.6367338,,103.6262645,103.6367338,104.1247058,104.1247058,104.1247058,104.4204624,104.6261295,right,13,,1,1,0.4978085,403058,1,2024-09-12_14h43.08.824,SESSION 3 ADAPTIVE STAIRCASE,2024.1.5,None,2024-09-12 14h43.12.031821 +0530
68,0.5,13,104.6367521,,104.6262507,104.6367521,105.1248672,105.1248672,105.1248672,105.4205057,105.8590577,left,-13,,1,1,0.730726584,403058,1,2024-09-12_14h43.08.824,SESSION 3 ADAPTIVE STAIRCASE,2024.1.5,None,2024-09-12 14h43.12.031821 +0530
69,0.5,13,105.8703579,,105.859175,105.8703579,106.3537932,106.3537932,106.358466,106.6410252,106.9565035,left,-13,,1,1,0.592576,403058,1,2024-09-12_14h43.08.824,SESSION 3 ADAPTIVE STAIRCASE,2024.1.5,None,2024-09-12 14h43.12.031821 +0530
70,0.5,12.5,106.965616,,106.9566827,106.965616,107.4537866,107.4537866,107.4584212,107.740675,108.0387318,right,12.5,,1,1,0.570957084,403058,1,2024-09-12_14h43.08.824,SESSION 3 ADAPTIVE STAIRCASE,2024.1.5,None,2024-09-12 14h43.12.031821 +0530
71,0.5,12.5,108.0472418,,108.0388503,108.0472418,108.5370311,108.5370311,108.5417485,108.8243907,109.0725039,right,12.5,,1,1,0.524976542,403058,1,2024-09-12_14h43.08.824,SESSION 3 ADAPTIVE STAIRCASE,2024.1.5,None,2024-09-12 14h43.12.031821 +0530
72,0.5,12.5,109.081401,,109.0726464,109.081401,109.5704043,109.5704043,109.5750124,109.8572966,110.2591962,left,-12.5,,1,1,0.685855,403058,1,2024-09-12_14h43.08.824,SESSION 3 ADAPTIVE STAIRCASE,2024.1.5,None,2024-09-12 14h43.12.031821 +0530
73,0.5,12,110.2704288,,110.2593226,110.2704288,110.7538447,110.7538447,110.7585068,111.041,111.2597972,right,12,,1,1,0.502775042,403058,1,2024-09-12_14h43.08.824,SESSION 3 ADAPTIVE STAIRCASE,2024.1.5,None,2024-09-12 14h43.12.031821 +0530
74,0.5,12,111.2700456,,111.2599213,111.2700456,111.7583585,111.7583585,111.7583585,112.0537906,112.3558402,left,-12,,1,1,0.58636975,403058,1,2024-09-12_14h43.08.824,SESSION 3 ADAPTIVE STAIRCASE,2024.1.5,None,2024-09-12 14h43.12.031821 +0530
75,0.5,12,112.3640663,,112.3559539,112.3640663,112.8540485,112.8540485,112.8587605,113.1411632,113.4226431,left,-12,,1,1,0.556250709,403058,1,2024-09-12_14h43.08.824,SESSION 3 ADAPTIVE STAIRCASE,2024.1.5,None,2024-09-12 14h43.12.031821 +0530
76,0.5,11.5,113.4318854,,113.4228115,113.4318854,113.9200868,113.9200868,113.9251802,114.2080028,115.110566,left,-11.5,,1,1,1.187501292,403058,1,2024-09-12_14h43.08.824,SESSION 3 ADAPTIVE STAIRCASE,2024.1.5,None,2024-09-12 14h43.12.031821 +0530
77,0.5,11.5,115.1201325,,115.1106954,115.1201325,115.608513,115.608513,115.608513,115.9041314,116.3889242,left,-11.5,,1,1,0.775523791,403058,1,2024-09-12_14h43.08.824,SESSION 3 ADAPTIVE STAIRCASE,2024.1.5,None,2024-09-12 14h43.12.031821 +0530
78,0.5,11.5,116.3974947,,116.3890422,116.3974947,116.8873986,116.8873986,116.8920758,117.1748804,117.5091432,right,11.5,11.5,1,1,0.61854125,403058,1,2024-09-12_14h43.08.824,SESSION 3 ADAPTIVE STAIRCASE,2024.1.5,None,2024-09-12 14h43.12.031821 +0530
79,0.5,11,117.5207257,,117.5092665,117.5207257,118.004112,118.004112,118.0087462,118.2910044,118.9270919,left,-11,,0,0,0.92036725,403058,1,2024-09-12_14h43.08.824,SESSION 3 ADAPTIVE STAIRCASE,2024.1.5,None,2024-09-12 14h43.12.031821 +0530
80,0.5,11.5,118.9368812,,118.9272199,118.9368812,119.4252298,119.4252298,119.4252298,119.720775,120.176572,left,-11.5,,1,1,0.74925525,403058,1,2024-09-12_14h43.08.824,SESSION 3 ADAPTIVE STAIRCASE,2024.1.5,None,2024-09-12 14h43.12.031821 +0530
81,0.5,11.5,120.1871959,,120.1766927,120.1871959,120.6708089,120.6708089,120.6754385,120.9583538,121.4937293,left,-11.5,,1,1,0.820540708,403058,1,2024-09-12_14h43.08.824,SESSION 3 ADAPTIVE STAIRCASE,2024.1.5,None,2024-09-12 14h43.12.031821 +0530
82,0.5,11.5,121.5036742,,121.4938638,121.5036742,121.991901,121.991901,121.991901,122.2876237,122.677214,right,11.5,,1,1,0.682743292,403058,1,2024-09-12_14h43.08.824,SESSION 3 ADAPTIVE STAIRCASE,2024.1.5,None,2024-09-12 14h43.12.031821 +0530
83,0.5,11,122.6869728,,122.6773407,122.6869728,123.175317,123.175317,123.175317,123.4709179,124.0435329,right,11,,1,1,0.865146875,403058,1,2024-09-12_14h43.08.824,SESSION 3 ADAPTIVE STAIRCASE,2024.1.5,None,2024-09-12 14h43.12.031821 +0530
84,0.5,11,124.0536685,,124.0436554,124.0536685,124.5426543,124.5426543,124.5426543,124.837633,125.3228342,left,-11,,1,1,0.769661042,403058,1,2024-09-12_14h43.08.824,SESSION 3 ADAPTIVE STAIRCASE,2024.1.5,None,2024-09-12 14h43.12.031821 +0530
85,0.5,11,125.3315541,,125.3229846,125.3315541,125.8210069,125.8210069,125.8256925,126.1092893,126.4058086,left,-11,11,1,1,0.574717334,403058,1,2024-09-12_14h43.08.824,SESSION 3 ADAPTIVE STAIRCASE,2024.1.5,None,2024-09-12 14h43.12.031821 +0530
86,0.5,10.5,126.4143886,,126.4059472,126.4143886,126.9043092,126.9043092,126.9090341,127.1913588,127.3730275,right,10.5,,0,0,0.465247208,403058,1,2024-09-12_14h43.08.824,SESSION 3 ADAPTIVE STAIRCASE,2024.1.5,None,2024-09-12 14h43.12.031821 +0530
87,0.5,11,127.3815567,,127.373183,127.3815567,127.8709501,127.8709501,127.8756064,,127.9430749,right,11,,1,1,0.06875975,403058,1,2024-09-12_14h43.08.824,SESSION 3 ADAPTIVE STAIRCASE,2024.1.5,None,2024-09-12 14h43.12.031821 +0530
88,0.5,11,127.9542092,,127.9431918,127.9542092,128.4376766,128.4376766,128.442403,,128.5726074,left,-11,,1,1,0.130840292,403058,1,2024-09-12_14h43.08.824,SESSION 3 ADAPTIVE STAIRCASE,2024.1.5,None,2024-09-12 14h43.12.031821 +0530
89,0.5,11,128.5812173,,128.5727277,128.5812173,129.0708065,129.0708065,129.0753743,129.3582596,129.6563002,right,11,,1,1,0.580324125,403058,1,2024-09-12_14h43.08.824,SESSION 3 ADAPTIVE STAIRCASE,2024.1.5,None,2024-09-12 14h43.12.031821 +0530
90,0.5,10.5,129.6651085,,129.6564538,129.6651085,130.1543103,130.1543103,130.1589982,130.4412594,130.7433461,right,10.5,,1,1,0.585171,403058,1,2024-09-12_14h43.08.824,SESSION 3 ADAPTIVE STAIRCASE,2024.1.5,None,2024-09-12 14h43.12.031821 +0530
91,0.5,10.5,130.7540786,,130.7434744,130.7540786,131.2420677,131.2420677,131.2420677,131.5377478,132.0563902,right,10.5,,1,1,0.805782583,403058,1,2024-09-12_14h43.08.824,SESSION 3 ADAPTIVE STAIRCASE,2024.1.5,None,2024-09-12 14h43.12.031821 +0530
92,0.5,10.5,132.0650546,,132.0565265,132.0650546,132.5544185,132.5544185,132.559168,132.8421124,133.0729893,right,10.5,,1,1,0.507066459,403058,1,2024-09-12_14h43.08.824,SESSION 3 ADAPTIVE STAIRCASE,2024.1.5,None,2024-09-12 14h43.12.031821 +0530
93,0.5,10,133.0816627,,133.0731665,133.0816627,133.5712156,133.5712156,133.5758252,133.8581615,134.2397781,left,-10,,1,1,0.659170167,403058,1,2024-09-12_14h43.08.824,SESSION 3 ADAPTIVE STAIRCASE,2024.1.5,None,2024-09-12 14h43.12.031821 +0530
94,0.5,10,134.2484473,,134.2399205,134.2484473,134.7378047,134.7378047,134.742347,135.0256442,135.3598293,left,-10,,1,1,0.61870825,403058,1,2024-09-12_14h43.08.824,SESSION 3 ADAPTIVE STAIRCASE,2024.1.5,None,2024-09-12 14h43.12.031821 +0530
95,0.5,10,135.3711734,,135.3599497,135.3711734,135.8545254,135.8545254,135.8592821,136.1417278,136.4892469,left,-10,,1,1,0.622576625,403058,1,2024-09-12_14h43.08.824,SESSION 3 ADAPTIVE STAIRCASE,2024.1.5,None,2024-09-12 14h43.12.031821 +0530
96,0.5,9.5,136.4975905,,136.4893684,136.4975905,136.9877288,136.9877288,136.9926391,137.2746337,137.6105544,right,9.5,,1,1,0.620362583,403058,1,2024-09-12_14h43.08.824,SESSION 3 ADAPTIVE STAIRCASE,2024.1.5,None,2024-09-12 14h43.12.031821 +0530
97,0.5,9.5,137.620648,,137.6106755,137.620648,138.1086252,138.1086252,138.1086252,138.4046161,138.8398943,left,-9.5,,1,1,0.72160725,403058,1,2024-09-12_14h43.08.824,SESSION 3 ADAPTIVE STAIRCASE,2024.1.5,None,2024-09-12 14h43.12.031821 +0530
98,0.5,9.5,138.8487688,,138.8400735,138.8487688,139.337914,139.337914,139.3425159,139.6256522,139.8944518,left,-9.5,,1,1,0.552404042,403058,1,2024-09-12_14h43.08.824,SESSION 3 ADAPTIVE STAIRCASE,2024.1.5,None,2024-09-12 14h43.12.031821 +0530
99,0.5,9,139.9040508,,139.8946118,139.9040508,140.3923348,140.3923348,140.3923348,140.6879916,141.0228263,right,9,,1,1,0.627791083,403058,1,2024-09-12_14h43.08.824,SESSION 3 ADAPTIVE STAIRCASE,2024.1.5,None,2024-09-12 14h43.12.031821 +0530
,,,,,,,,,,,,,,,,,,,,,,,,
,,,,,,,,,,,,,Absolute Threshold,13.1,,,,,,,,,,